File: doc/data/powder.chi
out/agbeh5_1M_00001.chi
q [nm^-1]
Intensity
   1063
 0.000000000000000000e+00 0.000000000000000000e+00 0.000000000000000000e+00
 0.00828289 0.000000000000000000e+00 0.000000000000000000e+00
 0.0165658 0.000000000000000000e+00 0.000000000000000000e+00
 0.0248487 0.000000000000000000e+00 0.000000000000000000e+00
 0.0331316 0.000000000000000000e+00 0.000000000000000000e+00
 0.0414145 0.000000000000000000e+00 0.000000000000000000e+00
 0.0496973 0.000000000000000000e+00 0.000000000000000000e+00
 0.0579802 0.000000000000000000e+00 0.000000000000000000e+00
 0.0662631 0.000000000000000000e+00 0.000000000000000000e+00
 0.074546 0.000000000000000000e+00 0.000000000000000000e+00
 0.0828289 0.000000000000000000e+00 0.000000000000000000e+00
 0.0911118 0.000000000000000000e+00 0.000000000000000000e+00
 0.0993947 0.000000000000000000e+00 0.000000000000000000e+00
 0.107678 0.000000000000000000e+00 0.000000000000000000e+00
 0.11596 0.000000000000000000e+00 0.000000000000000000e+00
 0.124243 0.000000000000000000e+00 0.000000000000000000e+00
 0.132526 0.000000000000000000e+00 0.000000000000000000e+00
 0.140809 0.000000000000000000e+00 0.000000000000000000e+00
 0.149092 0.000000000000000000e+00 0.000000000000000000e+00
 0.157375 0.000000000000000000e+00 0.000000000000000000e+00
 0.165658 0.000000000000000000e+00 0.000000000000000000e+00
 0.173941 0.000000000000000000e+00 0.000000000000000000e+00
 0.182223 0.000000000000000000e+00 0.000000000000000000e+00
 0.190506 0.000000000000000000e+00 0.000000000000000000e+00
 0.198789 0.000000000000000000e+00 0.000000000000000000e+00
 0.207072 0.000000000000000000e+00 0.000000000000000000e+00
 0.215355 0.000000000000000000e+00 0.000000000000000000e+00
 0.223638 3371 73.4412
 0.231921 6063.82 38.3408
 0.240203 5959.31 23.6135
 0.248486 5483.52 19.97
 0.256769 4842.76 16.4886
 0.265052 4295.08 13.9527
 0.273335 3865.87 12.6751
 0.281618 3437.95 10.9591
 0.289901 3105.53 9.88999
 0.298183 2816.49 9.07655
 0.306466 2595.46 8.29867
 0.314749 2387.72 7.61393
 0.323032 2229.03 7.18421
 0.331315 2083.26 6.74341
 0.339598 1958.07 6.26575
 0.34788 1848.76 5.98064
 0.356163 1752.67 5.65794
 0.364446 1665.27 5.40215
 0.372729 1585.39 5.15109
 0.381012 1521.07 4.91854
 0.389294 1453.34 4.74454
 0.397577 1385.71 4.69691
 0.40586 1312.67 5.07333
 0.414143 1261.29 5.25065
 0.422426 1229.36 5.49678
 0.430708 1197.47 5.61358
 0.438991 1173.01 5.69339
 0.447274 1141.3 5.7673
 0.455557 1122.08 5.99822
 0.463839 1103.54 6.1227
 0.472122 1092.66 6.09893
 0.480405 1075.59 6.29708
 0.488688 1058.97 6.43637
 0.49697 1055.85 6.55638
 0.505253 1024.98 6.65758
 0.513536 1019.61 6.70385
 0.521819 1015.59 6.97504
 0.530101 998.619 7.01162
 0.538384 989.029 6.91434
 0.546667 959.477 4.95211
 0.554949 932.662 4.41952
 0.563232 907.415 4.0969
 0.571515 889.647 3.83867
 0.579797 880.206 3.66933
 0.58808 870.128 3.5194
 0.596363 856.65 3.38529
 0.604646 841.078 3.29035
 0.612928 835.531 3.17999
 0.621211 825.393 3.0868
 0.629493 818.782 3.02569
 0.637776 806.947 2.9556
 0.646059 800.01 2.88771
 0.654341 791.909 2.80883
 0.662624 786.224 2.73558
 0.670907 776.969 2.68608
 0.679189 775.22 2.64197
 0.687472 771.439 2.59142
 0.695754 766.692 2.54496
 0.704037 760.441 2.49726
 0.71232 753.384 2.45624
 0.720602 753.829 2.41853
 0.728885 748.966 2.3854
 0.737167 744.34 2.34594
 0.74545 742.551 2.32229
 0.753732 736.561 2.3108
 0.762015 732.423 2.28167
 0.770297 727.645 2.25526
 0.77858 730.533 2.22737
 0.786862 722.517 2.19198
 0.795145 725.826 2.17451
 0.803427 724.137 2.13325
 0.81171 722.486 2.10938
 0.819992 723.614 2.08276
 0.828275 721.64 2.0626
 0.836557 723.095 2.04592
 0.84484 721.979 2.02718
 0.853122 719.595 2.0117
 0.861405 720.702 2.00866
 0.869687 723.954 2.00933
 0.87797 725.074 2.0046
 0.886252 726.029 1.99558
 0.894534 737.485 2.00577
 0.902817 755.003 2.01541
 0.911099 787.479 2.03584
 0.919381 841.685 2.08562
 0.927664 938.613 2.18556
 0.935946 1112.46 2.35993
 0.944229 1382.75 2.60509
 0.952511 1676.51 2.85106
 0.960793 1823.14 2.94121
 0.969075 1781.02 2.89334
 0.977358 1659.14 2.76193
 0.98564 1512.74 2.62074
 0.993922 1366.58 2.4762
 1.0022 1217.91 2.3179
 1.01049 1073.34 2.16084
 1.01877 954.795 2.02485
 1.02705 856.81 1.90414
 1.03533 784.994 1.81066
 1.04362 738.424 1.74276
 1.0519 713.829 1.70497
 1.06018 698.718 1.67598
 1.06846 689.199 1.65273
 1.07674 687.612 1.64554
 1.08503 687.09 1.62562
 1.09331 681.556 1.61172
 1.10159 679.555 1.6025
 1.10987 675.882 1.59122
 1.11816 674.193 1.57837
 1.12644 671.861 1.56769
 1.13472 669.573 1.55791
 1.143 668.683 1.54709
 1.15128 667.887 1.53947
 1.15957 665.882 1.53055
 1.16785 665.337 1.52192
 1.17613 662.625 1.51029
 1.18441 665.177 1.50625
 1.19269 664.439 1.49824
 1.20098 660.456 1.4853
 1.20926 662.081 1.48372
 1.21754 660.436 1.47454
 1.22582 660.428 1.46731
 1.2341 658.998 1.45611
 1.24239 661.895 1.4526
 1.25067 660.276 1.44923
 1.25895 657.543 1.43445
 1.26723 660.159 1.43421
 1.27551 659.406 1.42619
 1.2838 656.056 1.41522
 1.29208 657.292 1.41359
 1.30036 658.043 1.40614
 1.30864 656.791 1.4019
 1.31692 655.722 1.38887
 1.3252 654.546 1.388
 1.33349 653.236 1.37652
 1.34177 655.169 1.37619
 1.35005 654.652 1.37218
 1.35833 653.279 1.36027
 1.36661 653.266 1.35833
 1.37489 655.267 1.35302
 1.38318 653.614 1.34697
 1.39146 654.479 1.34425
 1.39974 653.65 1.33252
 1.40802 653.025 1.33155
 1.4163 651.912 1.3218
 1.42458 652.46 1.32247
 1.43287 650.638 1.31338
 1.44115 649.078 1.30437
 1.44943 651.042 1.30368
 1.45771 650.414 1.29755
 1.46599 649.263 1.29599
 1.47427 647.367 1.28304
 1.48256 648.611 1.28427
 1.49084 647.504 1.2774
 1.49912 648.378 1.27356
 1.5074 646.616 1.26738
 1.51568 646.202 1.26286
 1.52396 646.475 1.26031
 1.53224 646.223 1.25468
 1.54053 643.523 1.24732
 1.54881 643.696 1.24346
 1.55709 644.039 1.2373
 1.56537 643.301 1.2377
 1.57365 643.726 1.22981
 1.58193 642.739 1.22688
 1.59021 640.099 1.21982
 1.5985 640.298 1.21762
 1.60678 638.406 1.21223
 1.61506 641.178 1.20853
 1.62334 637.916 1.20588
 1.63162 637.94 1.20087
 1.6399 638.249 1.19719
 1.64818 636.781 1.19197
 1.65646 636.22 1.18838
 1.66475 636.627 1.18613
 1.67303 633.722 1.17871
 1.68131 633.16 1.17642
 1.68959 634.108 1.17409
 1.69787 632.908 1.16902
 1.70615 632.931 1.16613
 1.71443 630.301 1.15881
 1.72271 629.241 1.155
 1.73099 628.126 1.15283
 1.73928 628.098 1.14954
 1.74756 626.576 1.1429
 1.75584 625.004 1.13976
 1.76412 624.187 1.13555
 1.7724 621.931 1.13116
 1.78068 621.499 1.12744
 1.78896 623.257 1.12731
 1.79724 621.241 1.12156
 1.80552 620.105 1.11707
 1.8138 620.331 1.11573
 1.82208 618.041 1.10785
 1.83037 616.231 1.1076
 1.83865 615.842 1.10342
 1.84693 617.333 1.10149
 1.85521 615.272 1.09589
 1.86349 616.397 1.09509
 1.87177 614.105 1.09066
 1.88005 614.057 1.08629
 1.88833 617.122 1.08743
 1.89661 619.286 1.08654
 1.90489 625.399 1.08756
 1.91317 638.312 1.09841
 1.92145 661.135 1.11347
 1.92973 695.368 1.1404
 1.93801 742.628 1.17447
 1.94629 782.971 1.20497
 1.95458 794.801 1.21103
 1.96286 785.101 1.19913
 1.97114 762.327 1.17905
 1.97942 737.613 1.15714
 1.9877 710.283 1.13345
 1.99598 683.381 1.11165
 2.00426 660.855 1.08663
 2.01254 640.78 1.07053
 2.02082 624.072 1.0515
 2.0291 612.063 1.0403
 2.03738 601.345 1.0282
 2.04566 596.697 1.02242
 2.05394 592.491 1.01837
 2.06222 590.032 1.01074
 2.0705 586.355 1.00639
 2.07878 584.744 1.00279
 2.08706 583.805 1.00021
 2.09534 582.742 0.997217
 2.10362 580.671 0.992957
 2.1119 577.815 0.98941
 2.12018 577.677 0.984508
 2.12846 575.98 0.982186
 2.13674 574.794 0.979689
 2.14502 573.691 0.976864
 2.1533 572.781 0.973411
 2.16158 571.748 0.970229
 2.16986 569.48 0.966118
 2.17814 571.775 0.980649
 2.18642 576.381 1.00768
 2.1947 580.206 1.02692
 2.20298 582.188 1.03797
 2.21126 583.407 1.0493
 2.21954 583.687 1.05737
 2.22782 583.032 1.06484
 2.2361 585.264 1.07356
 2.24438 585.217 1.07776
 2.25266 586.959 1.08633
 2.26094 587.029 1.09266
 2.26922 587.742 1.10112
 2.2775 586.045 1.09953
 2.28578 583.161 1.09866
 2.29406 585.778 1.10134
 2.30234 585.345 1.10813
 2.31062 585.896 1.11259
 2.3189 582.632 1.09916
 2.32718 573.671 1.06104
 2.33546 567.736 1.0345
 2.34374 561.672 1.02028
 2.35202 560.093 1.01011
 2.36029 556.16 0.997345
 2.36857 551.933 0.987495
 2.37685 550.491 0.980109
 2.38513 547.72 0.974086
 2.39341 545.905 0.965389
 2.40169 543.16 0.957913
 2.40997 541.189 0.955014
 2.41825 540.79 0.951212
 2.42653 539.364 0.951201
 2.43481 537.653 0.943626
 2.44309 535.659 0.938964
 2.45137 532.374 0.933634
 2.45965 530.209 0.926955
 2.46793 529.57 0.926162
 2.4762 529.257 0.9205
 2.48448 527.976 0.916364
 2.49276 524.765 0.912938
 2.50104 525.239 0.908895
 2.50932 523.908 0.907431
 2.5176 522.139 0.900737
 2.52588 520.556 0.897845
 2.53416 517.626 0.892469
 2.54244 517.137 0.889442
 2.55071 516.207 0.887879
 2.55899 516.332 0.884154
 2.56727 515.067 0.881862
 2.57555 512.318 0.877396
 2.58383 511.188 0.873439
 2.59211 509.642 0.870091
 2.60039 508.992 0.867404
 2.60867 507.968 0.864656
 2.61694 506.762 0.861098
 2.62522 505.218 0.857983
 2.6335 504.986 0.856344
 2.64178 503.143 0.851809
 2.65006 502.255 0.849947
 2.65834 499.799 0.845929
 2.66662 499.98 0.844045
 2.67489 499.015 0.840651
 2.68317 497.814 0.838935
 2.69145 496.285 0.836169
 2.69973 495.144 0.832973
 2.70801 495.049 0.831655
 2.71629 493.827 0.827133
 2.72456 491.435 0.824877
 2.73284 490.732 0.82159
 2.74112 491.41 0.821874
 2.7494 489.248 0.817715
 2.75768 487.671 0.815421
 2.76596 486.924 0.812894
 2.77423 486.632 0.810556
 2.78251 485.577 0.807533
 2.79079 485.668 0.80788
 2.79907 484.654 0.803535
 2.80735 483.743 0.803482
 2.81562 482.788 0.799791
 2.8239 481.295 0.796217
 2.83218 480.874 0.795868
 2.84046 480.636 0.792255
 2.84874 480.531 0.792556
 2.85701 479.229 0.788811
 2.86529 479.7 0.787921
 2.87357 481.869 0.788713
 2.88185 481.816 0.786514
 2.89012 484.211 0.788151
 2.8984 490.738 0.790944
 2.90668 502.166 0.799368
 2.91496 519.276 0.81094
 2.92323 545.12 0.829072
 2.93151 566.402 0.844602
 2.93979 578.466 0.851975
 2.94807 576.911 0.848636
 2.95634 567.685 0.841757
 2.96462 554.271 0.828527
 2.9729 536.382 0.814857
 2.98118 519.884 0.800435
 2.98945 504.056 0.786431
 2.99773 492.415 0.776702
 3.00601 482.542 0.767554
 3.01429 474.283 0.760001
 3.02256 469.487 0.753629
 3.03084 467.77 0.751539
 3.03912 464.66 0.748613
 3.0474 462.785 0.745334
 3.05567 462.647 0.743606
 3.06395 460.182 0.740325
 3.07223 459.632 0.738865
 3.0805 459.022 0.737144
 3.08878 458.101 0.734965
 3.09706 457.838 0.734024
 3.10533 457.715 0.732419
 3.11361 456.746 0.730467
 3.12189 456.466 0.729764
 3.13016 456.686 0.728242
 3.13844 456.299 0.726248
 3.14672 455.107 0.724776
 3.15499 454.018 0.722684
 3.16327 454.72 0.722438
 3.17155 455.44 0.721099
 3.17982 454.782 0.720115
 3.1881 453.217 0.717063
 3.19638 454.75 0.717944
 3.20465 454.113 0.716174
 3.21293 453.394 0.714271
 3.22121 453.15 0.713127
 3.22948 454.67 0.712873
 3.23776 454.972 0.712787
 3.24604 454.638 0.710889
 3.25431 455.03 0.710161
 3.26259 455.458 0.709905
 3.27087 456.413 0.709228
 3.27914 456.75 0.708392
 3.28742 456.437 0.707324
 3.29569 457.037 0.705761
 3.30397 457.372 0.706164
 3.31225 458.185 0.706094
 3.32052 458.605 0.704623
 3.3288 459.63 0.704267
 3.33707 461.336 0.704268
 3.34535 462.144 0.704199
 3.35363 462.775 0.703806
 3.3619 463.534 0.702763
 3.37018 464.935 0.703263
 3.37845 466.001 0.702995
 3.38673 467.453 0.703622
 3.39501 468.834 0.703289
 3.40328 470.405 0.703354
 3.41156 472 0.702838
 3.41983 473.178 0.704245
 3.42811 474.063 0.703522
 3.43638 476.127 0.703493
 3.44466 477.859 0.703926
 3.45293 479.597 0.704588
 3.46121 480.084 0.703039
 3.46949 482.076 0.705632
 3.47776 483.614 0.703945
 3.48604 485.663 0.704758
 3.49431 486.766 0.704365
 3.50259 487.589 0.704041
 3.51086 488.568 0.70439
 3.51914 489.726 0.703796
 3.52741 489.418 0.702909
 3.53569 489.994 0.702525
 3.54396 491.68 0.70074
 3.55224 491.829 0.700234
 3.56051 491.739 0.697007
 3.56879 491.563 0.695573
 3.57706 490.123 0.692639
 3.58534 490.551 0.691041
 3.59361 489.725 0.690669
 3.60189 489.485 0.689703
 3.61016 489.234 0.689108
 3.61844 487.144 0.687176
 3.62671 485.856 0.685333
 3.63499 484.391 0.684175
 3.64326 482.806 0.681923
 3.65154 480.56 0.679497
 3.65981 478.87 0.679834
 3.66808 476.287 0.677202
 3.67636 474.085 0.675025
 3.68463 472.768 0.673986
 3.69291 469.569 0.672146
 3.70118 468.398 0.671166
 3.70946 466.419 0.669767
 3.71773 464.354 0.668665
 3.726 460.451 0.665388
 3.73428 458.527 0.663697
 3.74255 457 0.663388
 3.75083 455.019 0.660203
 3.7591 453.439 0.660005
 3.76738 450.45 0.657057
 3.77565 446.987 0.654762
 3.78392 444.857 0.653729
 3.7922 443.982 0.651737
 3.80047 441.534 0.649938
 3.80875 438.581 0.648751
 3.81702 437.912 0.647945
 3.82529 435.192 0.645061
 3.83357 433.947 0.644426
 3.84184 432.567 0.642729
 3.85011 430.565 0.641335
 3.85839 429.052 0.639844
 3.86666 428.541 0.639139
 3.87494 427.086 0.638472
 3.88321 428.235 0.63855
 3.89148 428.945 0.639383
 3.89976 432.739 0.642032
 3.90803 439.503 0.645687
 3.9163 446.017 0.651401
 3.92458 452.327 0.655078
 3.93285 453.445 0.656237
 3.94112 450.168 0.653629
 3.9494 448.538 0.664967
 3.95767 443.678 0.672233
 3.96594 439.706 0.676183
 3.97421 434.107 0.678984
 3.98249 429.242 0.679786
 3.99076 424.547 0.680747
 3.99903 421.206 0.683754
 4.00731 419.493 0.683097
 4.01558 417.683 0.685903
 4.02385 417.532 0.689846
 4.03213 417.441 0.691919
 4.0404 416.808 0.697164
 4.04867 415.673 0.697895
 4.05694 415.792 0.700901
 4.06522 415.912 0.704312
 4.07349 414.695 0.703439
 4.08176 414.364 0.706564
 4.09003 410.703 0.690707
 4.09831 406.354 0.673556
 4.10658 405.117 0.666009
 4.11485 403.563 0.660206
 4.12312 402.049 0.654019
 4.1314 400.358 0.649903
 4.13967 398.591 0.646679
 4.14794 397.338 0.645218
 4.15621 397.294 0.643457
 4.16448 395.986 0.64046
 4.17276 394.682 0.638805
 4.18103 394.061 0.635658
 4.1893 392.832 0.633409
 4.19757 392.799 0.632334
 4.20584 390.249 0.629538
 4.21412 390.207 0.627555
 4.22239 389.837 0.626921
 4.23066 388.957 0.625426
 4.23893 388.85 0.623734
 4.2472 388.259 0.622405
 4.25547 386.502 0.61999
 4.26375 385.369 0.618792
 4.27202 385.421 0.617246
 4.28029 383.043 0.6157
 4.28856 383.645 0.615043
 4.29683 383.711 0.614
 4.3051 382.351 0.613892
 4.31337 380.945 0.60982
 4.32165 378.961 0.608081
 4.32992 379.66 0.608827
 4.33819 379.049 0.607098
 4.34646 378.222 0.605388
 4.35473 377.46 0.605327
 4.363 377.163 0.603644
 4.37127 376.773 0.603296
 4.37954 376.942 0.602559
 4.38781 376.317 0.601118
 4.39609 375.459 0.600433
 4.40436 374.402 0.599066
 4.41263 374.492 0.598064
 4.4209 373.996 0.597811
 4.42917 373.841 0.597241
 4.43744 373.344 0.596311
 4.44571 372.52 0.59468
 4.45398 371.824 0.594213
 4.46225 371.98 0.593317
 4.47052 371.922 0.59285
 4.47879 370.262 0.590967
 4.48706 369.282 0.590307
 4.49533 369.046 0.588817
 4.5036 368.591 0.588938
 4.51187 368.714 0.587604
 4.52014 368.212 0.587324
 4.52841 366.35 0.585735
 4.53668 366.498 0.584418
 4.54495 366.686 0.584516
 4.55322 365.853 0.584227
 4.56149 364.594 0.581679
 4.56976 365.829 0.582714
 4.57803 364.894 0.581817
 4.5863 364.773 0.580863
 4.59457 363.721 0.579907
 4.60284 363.419 0.579683
 4.61111 363.32 0.57787
 4.61938 362.438 0.577849
 4.62765 362.128 0.576905
 4.63592 362.1 0.575907
 4.64419 361.812 0.576471
 4.65246 360.6 0.574336
 4.66073 359.92 0.573499
 4.669 359.07 0.57269
 4.67727 359 0.572145
 4.68554 359.234 0.571777
 4.69381 358.749 0.570824
 4.70208 357.805 0.57025
 4.71035 356.961 0.568947
 4.71861 357.099 0.56851
 4.72688 357.129 0.568646
 4.73515 356.014 0.567004
 4.74342 355.45 0.566092
 4.75169 356.188 0.566519
 4.75996 354.97 0.565041
 4.76823 354.58 0.564112
 4.7765 354.429 0.554765
 4.78476 354.22 0.546664
 4.79303 353.765 0.548996
 4.8013 352.972 0.554966
 4.80957 352.65 0.554879
 4.81784 352.62 0.553183
 4.82611 351.617 0.552995
 4.83438 349.366 0.551522
 4.84264 350.938 0.554575
 4.85091 352.366 0.557461
 4.85918 353.067 0.557478
 4.86745 353.265 0.557649
 4.87572 354.289 0.558396
 4.88398 356.426 0.559247
 4.89225 361.005 0.562936
 4.90052 367.453 0.567257
 4.90879 373.768 0.571392
 4.91706 377.608 0.575467
 4.92532 377.294 0.574221
 4.93359 375.408 0.572941
 4.94186 371.288 0.569789
 4.95013 366.486 0.565628
 4.9584 360.601 0.561974
 4.96666 355.412 0.557947
 4.97493 352.197 0.555995
 4.9832 349.728 0.554958
 4.99147 349.402 0.554882
 4.99973 345.747 0.552307
 5.008 345.249 0.552549
 5.01627 345.856 0.553509
 5.02453 344.699 0.552996
 5.0328 343.982 0.553065
 5.04107 343.484 0.552864
 5.04934 344.062 0.553622
 5.0576 342.745 0.55361
 5.06587 342.558 0.553042
 5.07414 342.079 0.553723
 5.0824 341.265 0.55328
 5.09067 341.434 0.553619
 5.09894 340.685 0.553524
 5.1072 340.351 0.553781
 5.11547 340.825 0.55412
 5.12374 340.399 0.554509
 5.132 340.394 0.554254
 5.14027 338.663 0.553389
 5.14854 338.548 0.553812
 5.1568 339.573 0.555263
 5.16507 338.55 0.553641
 5.17333 337.895 0.554567
 5.1816 337.142 0.553775
 5.18987 337.525 0.554074
 5.19813 336.526 0.554515
 5.2064 336.057 0.553497
 5.21467 335.678 0.552918
 5.22293 336.334 0.554041
 5.2312 336.81 0.553534
 5.23946 336.321 0.553069
 5.24773 335.334 0.551943
 5.25599 334.378 0.550329
 5.26426 335.039 0.550079
 5.27253 334.16 0.548799
 5.28079 333.66 0.547234
 5.28906 333.803 0.546249
 5.29732 333.739 0.545938
 5.30559 333.821 0.544805
 5.31385 334.023 0.544426
 5.32212 333.577 0.544561
 5.33038 331.948 0.542732
 5.33865 332.072 0.543618
 5.34691 331.424 0.543057
 5.35518 331.706 0.543605
 5.36344 331.158 0.543656
 5.37171 331.06 0.543121
 5.37997 330.357 0.543316
 5.38824 330.532 0.543399
 5.3965 329.631 0.543204
 5.40477 329.803 0.543103
 5.41303 329.372 0.542915
 5.4213 329.133 0.543463
 5.42956 328.837 0.542702
 5.43783 328.694 0.543589
 5.44609 328.184 0.542755
 5.45436 328.099 0.54299
 5.46262 327.715 0.543144
 5.47088 327.323 0.542835
 5.47915 327.43 0.54236
 5.48741 326.707 0.543073
 5.49568 325.78 0.541508
 5.50394 326.174 0.542615
 5.5122 325.729 0.542275
 5.52047 325.808 0.542816
 5.52873 325.658 0.54243
 5.537 325.712 0.542782
 5.54526 325.472 0.542628
 5.55352 324.276 0.542121
 5.56179 324.109 0.541905
 5.57005 323.637 0.541632
 5.57831 323.419 0.54191
 5.58658 323.552 0.542114
 5.59484 322.568 0.541382
 5.6031 322.605 0.541459
 5.61137 322.57 0.541429
 5.61963 321.83 0.541315
 5.62789 321.2 0.540693
 5.63616 321.853 0.541643
 5.64442 320.951 0.540714
 5.65268 320.069 0.540494
 5.66095 319.901 0.540028
 5.66921 320.035 0.540835
 5.67747 320.139 0.540476
 5.68574 320.168 0.541165
 5.694 319.63 0.54259
 5.70226 321.749 0.559349
 5.71052 323.012 0.571096
 5.71879 323.711 0.578433
 5.72705 324.471 0.586412
 5.73531 324.847 0.59167
 5.74357 326.39 0.596702
 5.75184 326.247 0.601805
 5.7601 327.28 0.607625
 5.76836 328.376 0.613659
 5.77662 328.402 0.61804
 5.78488 328.325 0.622579
 5.79315 328.425 0.627507
 5.80141 328.943 0.631682
 5.80967 329.358 0.636608
 5.81793 329.448 0.641574
 5.82619 329.404 0.644685
 5.83446 329.259 0.643074
 5.84272 325.847 0.62174
 5.85098 324.325 0.611663
 5.85924 322.56 0.604443
 5.8675 322.622 0.601001
 5.87576 322.649 0.599206
 5.88402 324.544 0.599339
 5.89229 326.311 0.599272
 5.90055 326.951 0.59746
 5.90881 327.341 0.595948
 5.91707 326.797 0.59525
 5.92533 325.574 0.591536
 5.93359 323.547 0.588803
 5.94185 320.931 0.586104
 5.95011 318.669 0.58306
 5.95837 317.284 0.580554
 5.96663 314.941 0.578177
 5.9749 313.716 0.576134
 5.98316 313.237 0.574745
 5.99142 312.923 0.574173
 5.99968 312.274 0.572598
 6.00794 310.229 0.569655
 6.0162 310.225 0.569633
 6.02446 310.316 0.570015
 6.03272 309.687 0.567934
 6.04098 309.446 0.56775
 6.04924 309.286 0.567602
 6.0575 308.362 0.566128
 6.06576 308.845 0.565782
 6.07402 308.133 0.565771
 6.08228 307.698 0.56495
 6.09054 307.677 0.563634
 6.0988 306.66 0.563685
 6.10706 306.385 0.56245
 6.11532 305.552 0.561522
 6.12358 305.909 0.561723
 6.13184 305.775 0.5616
 6.1401 305.558 0.560876
 6.14836 304.743 0.560002
 6.15661 303.744 0.559461
 6.16487 304.336 0.559125
 6.17313 304.236 0.55914
 6.18139 303.215 0.558506
 6.18965 303.46 0.557282
 6.19791 302.813 0.556013
 6.20617 302.864 0.55567
 6.21443 302.737 0.554811
 6.22269 301.716 0.552787
 6.23095 301.907 0.552159
 6.2392 301.355 0.551602
 6.24746 301.683 0.551016
 6.25572 300.768 0.549696
 6.26398 299.365 0.547845
 6.27224 300.003 0.547605
 6.2805 301.253 0.548368
 6.28875 299.418 0.547568
 6.29701 299.46 0.546376
 6.30527 299.048 0.546375
 6.31353 299.286 0.546592
 6.32179 299.443 0.546923
 6.33005 299.014 0.545833
 6.3383 299.013 0.546105
 6.34656 297.987 0.545541
 6.35482 297.832 0.544516
 6.36308 297.35 0.544245
 6.37133 296.825 0.543849
 6.37959 296.743 0.543199
 6.38785 296.773 0.543378
 6.39611 296.692 0.544031
 6.40436 296.782 0.543488
 6.41262 296.166 0.542805
 6.42088 296.27 0.543086
 6.42914 296.089 0.542988
 6.43739 295.933 0.542558
 6.44565 296.035 0.54277
 6.45391 295.073 0.542241
 6.46216 295.037 0.541366
 6.47042 295.209 0.541995
 6.47868 293.669 0.540512
 6.48693 294.462 0.541224
 6.49519 294.148 0.540852
 6.50345 293.12 0.539755
 6.5117 293.273 0.540131
 6.51996 292.473 0.538691
 6.52822 292.128 0.538892
 6.53647 292.009 0.538698
 6.54473 292.214 0.538569
 6.55299 292.851 0.539323
 6.56124 292.237 0.539109
 6.5695 291.051 0.537981
 6.57775 292.16 0.538553
 6.58601 291.964 0.538439
 6.59427 291.058 0.538254
 6.60252 290.782 0.537548
 6.61078 290.542 0.537192
 6.61903 291.34 0.537546
 6.62729 290.739 0.536642
 6.63554 289.312 0.534481
 6.6438 289.183 0.533507
 6.65205 289.73 0.533436
 6.66031 289.314 0.531669
 6.66856 289.177 0.531494
 6.67682 289.343 0.531047
 6.68507 290.411 0.531718
 6.69333 289.077 0.530029
 6.70158 289.032 0.529505
 6.70984 288.334 0.528225
 6.71809 288.406 0.527065
 6.72635 288.579 0.527223
 6.7346 289.059 0.527455
 6.74286 288.609 0.526822
 6.75111 287.997 0.526485
 6.75937 287.21 0.525339
 6.76762 287.673 0.526158
 6.77588 288.253 0.526165
 6.78413 287.644 0.525594
 6.79238 287.102 0.52543
 6.80064 286.976 0.525141
 6.80889 286.64 0.524975
 6.81715 286.214 0.524837
 6.8254 286.522 0.524914
 6.83365 286.769 0.525583
 6.84191 286.387 0.524743
 6.85016 286.092 0.524458
 6.85842 285.862 0.524719
 6.86667 287.422 0.526102
 6.87492 288.943 0.527412
 6.88318 291.636 0.530073
 6.89143 292.599 0.530851
 6.89968 293.091 0.531552
 6.90794 293.029 0.530842
 6.91619 293.534 0.531506
 6.92444 292.17 0.53019
 6.9327 289.716 0.528133
 6.94095 288.156 0.526742
 6.9492 287.246 0.526385
 6.95745 285.718 0.52454
 6.96571 284.714 0.523618
 6.97396 283.935 0.523011
 6.98221 283.852 0.522903
 6.99046 283.22 0.522729
 6.99872 282.311 0.522017
 7.00697 282.756 0.522176
 7.01522 282.773 0.521955
 7.02347 282.041 0.521924
 7.03173 282.159 0.521184
 7.03998 282.643 0.52193
 7.04823 281.374 0.520914
 7.05648 281.128 0.520592
 7.06473 282.021 0.521528
 7.07298 281.108 0.520887
 7.08124 280.431 0.520228
 7.08949 280.553 0.520232
 7.09774 280.793 0.520674
 7.10599 280.642 0.520126
 7.11424 280.831 0.520866
 7.12249 279.194 0.518345
 7.13074 279.809 0.519322
 7.139 279.833 0.519751
 7.14725 280.265 0.519666
 7.1555 279.309 0.519171
 7.16375 279.255 0.519152
 7.172 279.094 0.519002
 7.18025 278.786 0.519107
 7.1885 278.621 0.518765
 7.19675 278.237 0.518408
 7.205 278.329 0.518525
 7.21325 277.832 0.517859
 7.2215 277.807 0.517243
 7.22975 277.165 0.517346
 7.238 277.205 0.517196
 7.24625 276.258 0.516436
 7.2545 277.178 0.51742
 7.26275 276.746 0.516939
 7.271 276.152 0.516727
 7.27925 276.696 0.51747
 7.2875 276.095 0.51644
 7.29575 276.142 0.516484
 7.304 275.73 0.516083
 7.31225 275.723 0.516217
 7.3205 274.799 0.514823
 7.32875 275.137 0.515637
 7.337 274.831 0.51521
 7.34525 274.27 0.514994
 7.3535 273.182 0.513755
 7.36175 274.231 0.514927
 7.37 274.415 0.515131
 7.37825 273.299 0.513818
 7.3865 273.298 0.514112
 7.39475 273.3 0.514363
 7.40299 273.146 0.514281
 7.41124 271.994 0.512157
 7.41949 273.689 0.517381
 7.42774 276.003 0.536876
 7.43599 276.611 0.547771
 7.44424 277.515 0.557016
 7.45249 278.393 0.563457
 7.46073 279.157 0.569263
 7.46898 279.124 0.575121
 7.47723 279.393 0.580844
 7.48548 279.873 0.586636
 7.49373 280.438 0.591493
 7.50197 280.584 0.596527
 7.51022 280.891 0.601932
 7.51847 281.644 0.607658
 7.52672 282.185 0.612624
 7.53496 281.274 0.617698
 7.54321 282.527 0.624092
 7.55146 282.128 0.628297
 7.55971 283.362 0.635108
 7.56795 283.346 0.640382
 7.5762 283.152 0.644935
 7.58445 283.125 0.649361
 7.59269 284.309 0.655835
 7.60094 283.738 0.660062
 7.60919 284.321 0.666196
 7.61744 284.525 0.671167
 7.62568 284.914 0.677381
 7.63393 284.301 0.681679
 7.64217 284.311 0.686227
 7.65042 285.934 0.693188
 7.65867 284.866 0.697148
 7.66691 285.198 0.702706
 7.67516 285.45 0.709456
 7.68341 285.234 0.713526
 7.69165 286.038 0.720177
 7.6999 286.162 0.725364
 7.70814 285.935 0.731067
 7.71639 286.538 0.736759
 7.72464 286.859 0.743135
 7.73288 286.309 0.748709
 7.74113 285.172 0.752161
 7.74937 285.755 0.759265
 7.75762 285.284 0.764688
 7.76586 286.328 0.771342
 7.77411 286.398 0.777108
 7.78235 285.854 0.782739
 7.7906 286.376 0.789882
 7.79884 286.207 0.796456
 7.80709 286.672 0.802907
 7.81533 286.108 0.809547
 7.82358 285.707 0.813888
 7.83182 286.623 0.822615
 7.84007 285.17 0.826836
 7.84831 285.431 0.835389
 7.85656 283.68 0.839325
 7.8648 283.952 0.846856
 7.87305 282.937 0.853257
 7.88129 281.226 0.855154
 7.88953 282.388 0.867559
 7.89778 281.209 0.871131
 7.90602 280.143 0.878565
 7.91427 277.917 0.883708
 7.92251 275.107 0.887291
 7.93075 272.893 0.890994
 7.939 268.506 0.891206
 7.94724 267.231 0.900908
 7.95548 266.022 0.910612
 7.96373 264.72 0.919281
 7.97197 263.21 0.928778
 7.98021 261.97 0.940166
 7.98846 261.26 0.954208
 7.9967 259.741 0.966059
 8.00494 258.19 0.979359
 8.01319 257.708 0.993555
 8.02143 256.392 1.01031
 8.02967 255.334 1.02625
 8.03791 255.215 1.04547
 8.04616 253.015 1.06176
 8.0544 251.913 1.08072
 8.06264 249.13 1.09855
 8.07088 248.011 1.12043
 8.07913 244.529 1.13633
 8.08737 242.787 1.15837
 8.09561 240.403 1.18246
 8.10385 238.575 1.21354
 8.11209 234.747 1.23892
 8.12034 234.282 1.28363
 8.12858 225.903 1.278
 8.13682 220.964 1.29505
 8.14506 218.493 1.3221
 8.1533 218.13 1.35998
 8.16154 211.686 1.3771
 8.16978 205.81 1.39055
 8.17803 199.787 1.40168
 8.18627 191.396 1.42033
 8.19451 183.712 1.44538
 8.20275 173.085 1.45955
 8.21099 167.34 1.50251
 8.21923 151.199 1.47034
 8.22747 139.982 1.48988
 8.23571 127.754 1.50872
 8.24395 115.86 1.53966
 8.25219 103.363 1.55837
 8.26043 87.5848 1.53596
 8.26867 73.8726 1.55153
 8.27691 64.4815 1.66535
 8.28515 47.2192 1.64557
 8.29339 34.615 1.84331
 8.30163 23.4466 2.50049
 8.30987 0.000000000000000000e+00 0.000000000000000000e+00
 8.31811 0.000000000000000000e+00 0.000000000000000000e+00
 8.32635 0.000000000000000000e+00 0.000000000000000000e+00
 8.33459 0.000000000000000000e+00 0.000000000000000000e+00
 8.34283 0.000000000000000000e+00 0.000000000000000000e+00
 8.35107 0.000000000000000000e+00 0.000000000000000000e+00
 8.35931 0.000000000000000000e+00 0.000000000000000000e+00
 8.36755 0.000000000000000000e+00 0.000000000000000000e+00
 8.37579 0.000000000000000000e+00 0.000000000000000000e+00
 8.38403 0.000000000000000000e+00 0.000000000000000000e+00
 8.39227 0.000000000000000000e+00 0.000000000000000000e+00
 8.40051 0.000000000000000000e+00 0.000000000000000000e+00
 8.40875 0.000000000000000000e+00 0.000000000000000000e+00
 8.41698 0.000000000000000000e+00 0.000000000000000000e+00
 8.42522 0.000000000000000000e+00 0.000000000000000000e+00
 8.43346 0.000000000000000000e+00 0.000000000000000000e+00
 8.4417 0.000000000000000000e+00 0.000000000000000000e+00
 8.44994 0.000000000000000000e+00 0.000000000000000000e+00
 8.45818 0.000000000000000000e+00 0.000000000000000000e+00
 8.46642 0.000000000000000000e+00 0.000000000000000000e+00
 8.47465 0.000000000000000000e+00 0.000000000000000000e+00
 8.48289 0.000000000000000000e+00 0.000000000000000000e+00
 8.49113 0.000000000000000000e+00 0.000000000000000000e+00
 8.49937 0.000000000000000000e+00 0.000000000000000000e+00
 8.50761 0.000000000000000000e+00 0.000000000000000000e+00
 8.51584 0.000000000000000000e+00 0.000000000000000000e+00
 8.52408 0.000000000000000000e+00 0.000000000000000000e+00
 8.53232 0.000000000000000000e+00 0.000000000000000000e+00
 8.54056 0.000000000000000000e+00 0.000000000000000000e+00
 8.54879 0.000000000000000000e+00 0.000000000000000000e+00
 8.55703 0.000000000000000000e+00 0.000000000000000000e+00
 8.56527 0.000000000000000000e+00 0.000000000000000000e+00
 8.5735 0.000000000000000000e+00 0.000000000000000000e+00
 8.58174 0.000000000000000000e+00 0.000000000000000000e+00
 8.58998 0.000000000000000000e+00 0.000000000000000000e+00
 8.59822 0.000000000000000000e+00 0.000000000000000000e+00
 8.60645 0.000000000000000000e+00 0.000000000000000000e+00
 8.61469 0.000000000000000000e+00 0.000000000000000000e+00
 8.62293 0.000000000000000000e+00 0.000000000000000000e+00
 8.63116 0.000000000000000000e+00 0.000000000000000000e+00
 8.6394 0.000000000000000000e+00 0.000000000000000000e+00
 8.64763 0.000000000000000000e+00 0.000000000000000000e+00
 8.65587 0.000000000000000000e+00 0.000000000000000000e+00
 8.66411 0.000000000000000000e+00 0.000000000000000000e+00
 8.67234 0.000000000000000000e+00 0.000000000000000000e+00
 8.68058 0.000000000000000000e+00 0.000000000000000000e+00
 8.68881 0.000000000000000000e+00 0.000000000000000000e+00
 8.69705 0.000000000000000000e+00 0.000000000000000000e+00
 8.70529 0.000000000000000000e+00 0.000000000000000000e+00
 8.71352 0.000000000000000000e+00 0.000000000000000000e+00
 8.72176 0.000000000000000000e+00 0.000000000000000000e+00
 8.72999 0.000000000000000000e+00 0.000000000000000000e+00
 8.73823 0.000000000000000000e+00 0.000000000000000000e+00
 8.74646 0.000000000000000000e+00 0.000000000000000000e+00
 8.7547 0.000000000000000000e+00 0.000000000000000000e+00
 8.76293 0.000000000000000000e+00 0.000000000000000000e+00
 8.77117 0.000000000000000000e+00 0.000000000000000000e+00
 8.7794 0.000000000000000000e+00 0.000000000000000000e+00